onset	rt	response
0.4647510002014927	0.4647510002014927	1
2.1405471859350476	0.675796185733555	1
4.710690036212732	1.5701428502776846	1
6.487505511023527	0.7768154748107949	0
8.636679456635925	1.1491739456123966	1
10.68711219019448	1.0504327335585566	0
13.151788278404478	1.4646760882099978	1
14.718579404598712	0.5667911261942342	1
16.299991608032656	0.5814122034339428	1
18.755538135461286	1.4555465274286292	1
20.507727710722484	0.7521895752612014	1
24.116478980956458	2.608751270233973	1
26.10975978312141	0.9932808021649556	1
28.032173319581197	0.9224135364597829	1
30.149685603452006	1.1175122838708094	1
32.12396911351407	0.9742835100620657	1
34.81330714080916	1.6893380272950829	0
38.5166037515509	2.7032966107417464	1
41.0378532550881	1.521249503537203	1
42.738371554939405	0.7005182998512987	0
44.67558099505848	0.9372094401190764	1
46.6855247146664	1.0099437196079255	0
48.570145681358554	0.8846209666921508	0
50.14294972169237	0.5728040403338144	0
51.868664378642855	0.725714656950486	1
53.75584896495454	0.8871845863116871	1
55.61661244946228	0.8607634845077354	0
58.25130806289102	1.6346956134287434	1
59.9409080373303	0.6895999744392798	0
61.55794399401835	0.6170359566880532	1
63.31093190999015	0.752987915971802	1
65.38486723163444	1.0739353216443017	1
67.08676995950091	0.70190272786646	1
68.73133701867292	0.644567059171999	1
70.38471180051167	0.6533747818387655	1
71.98707887251234	0.6023670720006626	1
73.70525771227506	0.7181788397627303	1
75.84648539275773	1.1412276804826658	0
78.50084556886654	1.6543601761088036	0
81.96778764836722	2.466942079500692	1
83.74006231337971	0.7722746650124857	1
86.17672521176372	1.4366628983840126	1
87.8311080785775	0.6543828668137848	0
90.12816565015353	1.2970575715760262	1
92.66508314104189	1.5369174908883512	1
94.13643643656962	0.4713532955277441	0
96.37368151443819	1.2372450778685644	0
99.02362509565174	1.6499435812135497	1
100.81151360994728	0.787888514295549	1
102.56792541176392	0.7564118018166337	0
104.73409436506893	1.1661689533050128	1
106.32270635443092	0.5886119893619878	1
108.08064485310518	0.7579384986742667	1
110.27270847637487	1.1920636232696946	0
115.76885771888809	4.49614924251321	1
118.54178712924109	1.7729294103529978	0
120.30863123213477	0.7668441028936861	0
123.49778097427819	2.189149742143413	0
127.04439327099246	2.546612296714278	1
128.7128722379567	0.6684789669642408	0
130.5061665842118	0.7932943462550957	1
132.40360935022528	0.8974427660134994	1
134.12231815480044	0.7187088045751285	1
136.26220905404142	1.139890899240979	0
137.93569601294047	0.6734869588990733	1
141.32940516639275	2.393709153452275	0
143.58931754308915	1.259912376696386	0
146.46812906826264	1.878811525173488	1
148.06641696777356	0.5982878995109147	1
150.32285268908112	1.2564357213075645	0
152.84565602987158	1.5228033407904529	1
154.43886999462626	0.5932139647546981	0
156.72916967559888	1.2902996809726037	1
158.50650805877757	0.7773383831786768	1
160.9343221861852	1.427814127407649	1
163.25045503995537	1.3161328537701704	1
165.63287446261677	1.382419422661379	0
167.62299380377905	0.9901193411623022	1
171.30103730030726	2.678043496528224	1
173.9537787744632	1.652741474155913	0
178.48429733363292	3.530518559169723	1
180.04604515235945	0.5617478187265379	1
181.68646322325787	0.6404180708984304	0
184.55238680730082	1.8659235840429242	1
186.34048967876413	0.7881028714633437	1
188.81783299211637	1.4773433133522258	1
191.0209994562808	1.203166464164437	1
193.315244894054	1.2942454377732053	1
195.11320224945564	0.7979573554016293	1
197.27130828887863	1.158106039422976	1
198.98929134853407	0.7179830596554497	0
200.90499190893496	0.9157005604009079	1
202.80984370469378	0.9048517957587825	1
205.76833599988407	1.9584922951903314	0
207.44451540173574	0.6761794018516574	1
209.4960054199699	1.0514900182341669	1
211.77168193040842	1.2756765104385268	0
213.784077854566	1.0123959241575535	1
215.48117687156952	0.6970990170035418	1
218.0752219050401	1.5940450334705871	0
219.98372127621218	0.9084993711720756	0
221.76988020716703	0.7861589309548374	0
224.40075862136246	1.6308784141954138	0
226.54530289100373	1.1445442696412855	1
230.4690365307714	2.9237336397676574	0
232.93106847034431	1.4620319395729173	0
236.19048387513374	2.2594154047894115	1
237.79152785956936	0.6010439844356313	1
239.51032518658096	0.7187973270116016	1
240.9846848826773	0.47435969609633055	1
244.50773461411382	2.523049731436526	1
246.26483032156824	0.7570957074544313	1
250.99164612723717	3.726815805668926	1
252.9793512404672	0.9877051132300203	0
255.56735594662456	1.5880047061573523	1
257.5821320873349	1.0147761407103546	0
259.95235115504306	1.3702190677081103	0
261.8380574933642	0.8857063383211664	1
266.11218962895555	3.2741321355913366	1
267.7420389913578	0.6298493624022443	1
271.12131792494336	2.379278933585536	1
272.8807906745459	0.7594727496025775	1
275.1473399040699	1.2665492295239613	1
276.7085169400125	0.5611770359426207	0
278.32991202559907	0.6213950855865824	0
280.76769003579886	1.4377780101997546	1
284.1193681914697	2.351678155670863	0
286.3002692966509	1.1809011051812073	1
288.10618586443263	0.8059165677817497	1
290.21472194840527	1.1085360839726137	1
292.97997376598244	1.7652518175771872	1
294.71371640808246	0.7337426420999973	1
296.6689950453667	0.9552786372842481	1
298.7915823201211	1.1225872747543946	1
301.3378276197019	1.5462452995807572	1
303.1564240471112	0.8185964274093407	1
305.96323561355257	1.806811566441378	1
308.17385093301914	1.210615319466506	1
309.6701909259207	0.4963399929015852	0
311.6145451933305	0.9443542674098333	1
313.1323726702168	0.5178274768862206	1
315.01236685167044	0.8799941814536457	0
316.57353539146493	0.5611685397945592	1
319.1997826627513	1.6262472712863876	0
321.25748156513237	1.057698902381015	0
322.9991572479117	0.7416756827793023	0
325.71245905703086	1.7133018091192138	1
328.1223510493043	1.4098919922734165	1
330.8140964101997	1.6917453608953408	0
333.22360705215715	1.4095106419574601	1
337.21503568514936	2.9914286329922026	1
339.0231963185538	0.8081606334044418	0
340.6522783881829	0.6290820696291164	1
342.16416585271963	0.5118874645367483	1
343.87443723751574	0.7102713847961413	1
346.89157913270446	2.017141895188694	1
349.06096286767604	1.1693837349715817	1
351.58740648628446	1.5264436186084163	1
354.307782603046	1.7203761167615474	1
355.94947236738767	0.6416897643416593	1
357.7855591609606	0.8360867935728911	0
359.7056624254799	0.9201032645193048	0
363.99660493631046	3.2909425108305923	1
366.57478810921754	1.5781831729070785	1
368.60054987578366	1.0257617665661218	1
370.64227279914655	1.041722923362863	1
372.27965722340434	0.6373844242578226	1
375.8412135962309	2.561556372826503	1
377.67414858023596	0.8329349840051372	0
379.6251708343475	0.9510222541114957	1
381.7559296071802	1.1307587728326507	0
385.03925151019337	2.2833219030132197	1
389.0840840761216	3.044832565928202	0
390.93011045935896	0.846026383237396	1
392.999952616242	1.0698421568830956	1
395.2851943144661	1.2852416982240333	0
397.1485853669254	0.8633910524592805	0
398.6517830695428	0.5031977026173922	1
400.99686966625745	1.3450865967146777	0
402.7326663653548	0.7357966990973845	1
405.17828090450115	1.4456145391463031	1
408.5428845478151	2.3646036433139757	1
410.4496926118604	0.9068080640452545	1
412.1129222216134	0.6632296097530305	1
413.62669611834633	0.5137738967329012	0
416.3506785065982	1.72398238825183	0
418.4219912036399	1.0713126970416857	0
419.9838147334296	0.5618235297897249	1
422.53250834701583	1.5486936135862344	1
425.68448472179256	2.1519763747767158	1
430.05463547668603	3.370150754893451	1
431.96607676356115	0.9114412868751595	1
433.751900068576	0.7858233050148762	1
435.9636816889137	1.2117816203376899	1
439.3170926774616	2.3534109885478274	1
441.1654884008668	0.8483957234052766	1
445.0939248463536	2.928436445486815	1
447.9684238084535	1.8744989620998873	1
450.5692817376196	1.6008579291660192	1
452.95805226501636	1.388770527396852	0
455.898950819715	1.9408985546986375	1
458.08095020674835	1.1819993870333045	1
461.17649683208737	2.0955466253389963	1
463.336150790521	1.1596539584336134	1
464.90113072915943	0.5649799386384565	1
467.9369473920247	2.0358166628652707	1
470.0208268716578	1.0838794796330664	1
473.2955766291577	2.2747497574999294	1
475.0413379982967	0.74576136913894	0
476.66019332909997	0.6188553308032964	0
478.63643607113517	0.9762427420352087	1
480.879370079668	1.2429340085328215	0
482.522738999826	0.6433689201580163	1
484.4061043830708	0.8833653832447761	0
486.06471052235173	0.658606139280943	1
487.89022804534517	0.8255175229934478	0
489.55836535241554	0.6681373070703629	1
492.7857455839568	2.2273802315412317	0
494.4673821723312	0.6816365883744171	1
496.14609985007587	0.6787176777446438	1
497.67773281365703	0.5316329635811778	1
502.40706383190843	3.729331018251387	0
504.4803040898037	1.0732402578953153	1
506.2662707676588	0.7859666778550873	0
508.48076596746466	1.21449519980588	0
510.1780153571767	0.6972493897120533	0
511.89341867517777	0.7154033180010446	0
513.3468286092402	0.4534099340624474	0
515.3671476653724	1.0203190561322115	1
518.8958889093417	2.5287412439692427	1
520.5875831007768	0.6916941914350538	0
522.3853122775754	0.7977291767987145	1
524.7460849132262	1.3607726356507208	1
527.1548256447618	1.408740731535569	1
529.7572659267494	1.6024402819876447	1
532.0446183246149	1.287352397865503	0
534.0312127718421	0.9865944472272147	0
536.9911729970904	1.959960225248254	0
539.6719761367215	1.6808031396310943	0
541.4608458776245	0.7888697409029733	0
544.3731448848114	1.9122990071869683	1
546.1499290878246	0.7767842030131622	1
547.8061165325264	0.6561874447018661	1
549.6660620444197	0.8599455118932718	1
551.2735712174663	0.6075091730465223	1
552.859039935493	0.5854687180268361	1
555.1571551056284	1.2981151701353795	1
556.7822482079489	0.6250931023205314	0
558.943336219264	1.1610880113150839	1
560.8298774797993	0.8865412605352372	1
562.4817012627498	0.6518237829505446	0
565.9215620787834	2.43986081603356	1
568.1018302758814	1.1802681970980071	1
569.7984787016044	0.696648425722916	1
572.2454985111062	1.4470198095018538	1
574.5166594864829	1.2711609753766975	1
576.1541263449167	0.637466858433835	1
578.6112206708814	1.4570943259646874	1
580.8464052663687	1.2351845954872807	1
583.0871756458228	1.2407703794541212	1
584.7556556958853	0.6684800500623647	0
586.3654858502915	0.609830154406314	1
587.9331003469908	0.5676144966992904	1
590.5482131824527	1.6151128354619821	1
593.1708239306254	1.622610748172671	1
594.9165095572057	0.7456856265802108	1
596.655527907443	0.7390183502373882	1
599.5445077871636	1.8889798797206214	1
602.610419487326	2.0659117001622525	1
604.6923528568802	1.081933369554374	1
607.7315629701379	2.0392101132575875	1
609.9932706120687	1.2617076419308342	1
612.111362854921	1.118092242852284	0
614.0194663073873	0.908103452466327	0
615.6827457000517	0.663279392664305	1
617.6692941020001	0.9865484019484616	1
619.2889444459363	0.61965034393619	1
621.404375328965	1.1154308830286084	1
623.0852794128634	0.6809040838983617	1
624.7808652449185	0.6955858320551063	0
626.5580839640859	0.7772187191674185	1
628.6246697727838	1.0665858086979005	1
630.6667537646149	1.0420839918310785	1
632.4169499831833	0.7501962185684508	1
634.6353488633983	1.21839888021495	0
636.6373102092261	1.0019613458279115	1
638.8134920897464	1.1761818805201594	1
642.36704918753	2.553557097783641	1
644.3155433708412	0.9484941833111491	1
645.9457478280781	0.630204457236941	1
647.6686432866618	0.7228954585837093	1
649.3519599976166	0.6833167109548886	1
651.3921914072678	1.0402314096510534	0
654.3295266037712	1.9373351965035703	1
656.0199309856246	0.690404381853236	1
657.8712034840686	0.8512724984441011	0
659.6139700971214	0.742766613052757	1
661.6124989130798	0.9985288159584209	1
663.3273393658084	0.7148404527285663	0
665.9306036511687	1.6032642853602859	0
