onset	rt	response
2.0256617252716325	2.0256617252716325	1
4.738757781358326	1.7130960560866937	1
6.6287248083647325	0.8899670270064063	1
8.377007059163432	0.7482822507986995	1
10.335920878686231	0.9589138195227976	1
12.319982102053626	0.9840612233673955	0
15.179043195551287	1.8590610934976617	1
17.153103356385934	0.9740601608346475	0
18.706259170189377	0.5531558138034414	1
22.13104004664764	2.4247808764582675	1
24.154712497387052	1.0236724507394097	1
25.966707040142055	0.8119945427550042	0
28.71497999899348	1.7482729588514256	1
30.65032833627588	0.9353483372823999	1
32.197656668134805	0.5473283318589262	1
34.82978433304299	1.6321276649081824	0
37.420182510780116	1.59039817773713	1
39.77400111809631	1.3538186073161882	1
42.76525721351683	1.9912560954205256	0
45.131162817141266	1.3659056036244361	0
47.701003772852324	1.5698409557110562	0
50.530428876012664	1.829425103160339	0
52.532129237633924	1.0017003616212632	0
55.04888297086304	1.5167537332291117	1
56.875074417738304	0.8261914468752618	1
59.47385846297329	1.5987840452349875	1
62.38099473713038	1.9071362741570883	1
65.55602877507681	2.175034037946429	1
67.24146753171306	0.6854387566362354	1
69.58779402657059	1.3463264948575429	1
71.60412243690831	1.0163284103377306	1
73.97503802263238	1.3709155857240565	1
75.6170181311627	0.6419801085303211	1
78.26250297749877	1.6454848463360832	0
81.09171616084718	1.8292131833484089	1
83.52630006356837	1.4345839027211875	1
86.24794902285394	1.7216489592855728	1
88.35961902412666	1.1116700012727083	1
90.27102186136761	0.9114028372409618	1
92.94075597106638	1.6697341096987632	1
97.56392079519944	3.6231648241330645	1
100.64262361095865	2.0787028157592125	0
105.33874828735028	3.6961246763916233	1
107.3572596056594	1.018511318309109	0
110.08464563811681	1.7273860324574224	0
112.99415038989251	1.9095047517756976	0
115.20212348804944	1.2079730981569297	0
117.10417945088923	0.9020559628397934	0
119.5794762414075	1.4752967905182648	0
121.30556111026864	0.7260848688611351	1
122.93003108106711	0.6244699707984711	1
124.59972407799407	0.6696929969269492	1
126.65449856223645	1.0547744842423892	0
128.6525286704317	0.998030108195253	0
132.20462313947678	2.552094469045076	0
136.02343160305207	2.818808463575278	1
137.97565300495006	0.9522214018979929	1
139.60008939702442	0.6244363920743787	1
141.623318765655	1.0232293686305873	1
143.36040577551148	0.7370870098564738	1
145.96633320722057	1.605927431709094	1
150.66413042553813	3.697797218317547	1
154.32533059260538	2.6612001670672494	1
157.1448324602526	1.8195018676472112	1
159.39550961326552	1.2506771530129286	0
160.95472104160402	0.559211428338517	1
162.56864187153394	0.6139208299299264	1
165.6384515978516	2.069809726317666	1
168.8009112089867	2.162459611135063	1
170.93391578818188	1.1330045791952212	1
174.229238941314	2.2953231531321054	0
175.79296928776512	0.5637303464511066	1
179.44792181899027	2.6549525312251596	1
181.32479716028942	0.8768753412991592	1
183.2348162242713	0.9100190639818675	1
185.44189224534304	1.20707602107175	1
186.92072539495712	0.47883314961409545	1
190.10792543661478	2.187200041657629	1
193.4665786196639	2.3586531830491175	0
195.29786355998385	0.8312849403199603	1
197.53673257821606	1.238869018232241	1
199.3316931660254	0.7949605878093189	1
201.14739821157627	0.8157050455508861	0
202.7713760817513	0.6239778701750297	1
204.50684225218714	0.7354661704358574	1
206.15751236298144	0.6506701107942992	1
208.98478690784367	1.8272745448622347	1
211.34450533860456	1.3597184307608625	0
213.7322782667562	1.3877729281516473	1
215.69297843719391	0.960700170437727	1
219.04670582570063	2.3537273885067065	1
220.85117026237228	0.8044644366716494	0
223.78535070989236	1.9341804475200783	1
225.5329108944989	0.7475601846065468	1
227.99408920892907	1.4611783144301558	1
230.80962772713607	1.8155385182070034	1
235.0562670069064	3.246639279770327	0
236.9839447461562	0.927677739249801	1
239.99595784501162	2.0120130988554106	0
242.43561996269335	1.4396621176817308	1
244.26141007207914	0.825790109385802	1
246.9479849549007	1.6865748828215716	1
248.65726632739123	0.7092813724905254	1
250.35184248732645	0.6945761599352205	1
252.0811523325006	0.7293098451741595	1
254.01135542047084	0.9302030879702394	0
259.47174663569325	4.460391215222425	0
260.9866484486615	0.5149018129682691	1
263.6622268652956	1.6755784166340997	0
267.8366940136575	3.1744671483619262	0
269.5188289346006	0.6821349209430647	1
271.44825678693496	0.9294278523343451	1
273.0449730468588	0.5967162599238053	1
276.0068295200719	1.9618564732131492	1
277.65717476234687	0.6503452422749705	1
279.3399768786081	0.6828021162612452	0
281.20675372376024	0.8667768451521529	1
283.70114428855425	1.4943905647940117	1
285.73236516814626	1.031220879591983	0
287.473427919619	0.7410627514727042	1
290.77649806010163	2.303070140482667	0
292.56261754871275	0.7861194886111392	1
294.11166619649464	0.5490486477818957	1
297.3562116457297	2.244545449235017	1
300.28808612930095	1.93187448357125	0
302.151439295504	0.8633531662031104	1
306.1024310335524	2.9509917380483612	1
310.1663965361105	3.063965502558094	1
312.10283485157856	0.9364383154681	0
315.01532377658145	1.9124889250028803	1
317.53275339059996	1.5174296140184886	1
319.5473082896101	1.0145548990101545	0
321.02604483013386	0.47873654052370457	1
322.84373170041914	0.8176868702853213	1
324.8291617343419	0.98543003392273	1
327.0980699019419	1.268908167600049	1
329.7328537124321	1.634783810490133	0
333.1352838988651	2.4024301864330697	1
337.6737214546539	3.5384375557887804	1
339.9103974733706	1.2366760187167287	1
341.9508382640731	1.0404407907024886	0
344.6044487201519	1.6536104560787404	1
346.74421014361576	1.1397614234639213	1
348.98062635487133	1.2364162112555694	1
350.9102191601501	0.9295928052787639	1
352.39627789459007	0.4860587344399618	1
354.09919232553324	0.7029144309431657	1
355.7042212582434	0.6050289327101761	1
357.95247116172084	1.2482499034774137	0
360.4592401089276	1.5067689472067776	1
362.67553847139277	1.2162983624651622	0
364.5232624975162	0.8477240261234498	1
369.5065732402753	3.9833107427590844	0
371.2516323745723	0.7450591342970293	1
373.20420305334284	0.9525706787705264	1
375.22635866984535	1.0221556165024994	1
377.8270444635483	1.600685793702947	1
379.50313807849216	0.6760936149438705	1
381.39005254729943	0.8869144688072406	1
382.9034384434632	0.5133858961637487	1
384.7066856679142	0.8032472244510546	1
388.27335971184465	2.566674043930452	0
390.0483253994684	0.7749656876237483	1
392.6386663264734	1.5903409270049778	1
395.77493131611567	2.1362649896422994	0
397.5522425467038	0.7773112305881142	1
400.7862812850657	2.234038738361917	1
404.7153837913857	2.9291025063200236	1
407.2921560285338	1.5767722371480757	1
409.56680729906554	1.274651270531772	1
411.6460608788095	1.0792535797439535	1
413.2327402863139	0.5866794075044284	1
415.7903679839352	1.5576276976212737	0
417.6181773564558	0.8278093725205862	1
419.4431313886133	0.8249540321575478	1
424.7927051579631	4.349573769349769	1
426.8328353553803	1.0401301974172061	1
428.7588625284516	0.9260271730712575	1
432.32389414559697	2.5650316171454133	0
434.03908713619217	0.7151929905952299	1
435.85039455625787	0.811307420065664	0
438.71907049685973	1.868675940601886	1
441.13294503166577	1.4138745348060284	1
443.2099834130269	1.077038381361171	1
446.0175381771322	1.8075547641053125	1
447.92759784177895	0.9100596646467496	0
451.19198265829124	2.2643848165122757	0
452.8714642918761	0.6794816335848677	1
454.35954579032074	0.48808149844460724	1
457.5218709410618	2.162325150741109	1
461.1975462842188	2.675675343156979	1
463.30789815171937	1.1103518675005761	0
465.1408704474365	0.8329722957171144	1
466.88771918326916	0.7468487358326312	1
468.68386621123074	0.7961470279616076	1
470.28378924742555	0.5999230361948023	1
474.7104611770114	3.426671929585827	1
476.6045855306191	0.8941243536076943	1
479.23719024942295	1.6326047188038368	1
481.005441215905	0.7682509664820729	1
483.346127717776	1.3406865018710203	0
485.4148981228667	1.0687704050906857	0
487.13117251504605	0.7162743921793656	0
488.79571373221705	0.6645412171709849	1
491.78588265538446	1.9901689231673811	1
493.4207843018786	0.6349016464941317	1
495.49137274284175	1.0705884409631383	1
497.20083180581645	0.7094590629747005	1
499.37935051048396	1.1785187046675285	1
501.16702226216944	0.7876717516854603	1
502.9155637949277	0.7485415327582793	1
505.52510303615674	1.6095392412290168	1
508.33234984296365	1.807246806806921	1
512.6709222082108	3.338572365247116	1
514.2462897181654	0.5753675099545328	1
515.7393043798397	0.49301466167444413	1
517.2778138010963	0.5385094212565578	1
518.8341578482601	0.556344047163781	1
521.2296644888393	1.3955066405790681	0
523.7620261771028	1.5323616882636306	1
525.3626274869864	0.6006013098836582	1
527.1732469838763	0.8106194968898519	1
528.980821245385	0.8075742615086041	0
531.8577019594309	1.8768807140460186	1
533.4955883038467	0.6378863444158736	1
535.8690024304885	1.3734141266417499	1
537.8144161237005	0.9454136932120811	0
539.4556826703653	0.6412665466646456	1
542.1619580757562	1.7062754053909057	1
543.9188160283318	0.756857952575545	0
546.3350012702799	1.4161852419482446	1
547.9330605911006	0.5980593208206179	1
549.7035775515751	0.7705169604746046	1
551.5942080735465	0.8906305219713083	0
553.7944887122358	1.2002806386892468	1
556.1967644041233	1.4022756918875727	1
558.0061269064206	0.8093625022972589	1
560.431793256303	1.4256663498824098	1
564.8962147945784	3.464421538275473	0
567.0131177373651	1.1169029427866006	1
569.4037488734459	1.390631136080841	1
571.355941256465	0.952192383019152	1
573.0234911920033	0.6675499355382172	1
574.7099355793996	0.6864443873963421	1
576.5323572384383	0.8224216590386524	1
578.1935934350824	0.6612361966441808	1
581.3387853441928	2.1451919091104226	1
583.4641049709032	1.1253196267104113	1
585.344088953598	0.8799839826947384	1
586.9222734627374	0.5781845091394275	1
589.7008677780118	1.7785943152743218	1
591.5048754171218	0.8040076391099843	1
593.1736288576312	0.6687534405094853	1
595.0984689724437	0.9248401148125225	0
597.2933313712026	1.1948623987587736	1
599.3730366371876	1.0797052659851403	0
603.1925588588047	2.8195222216170044	0
604.8175321041522	0.6249732453474564	1
607.7758029548943	1.9582708507421702	1
609.7331788298256	0.9573758749313708	0
612.9968049750337	2.2636261452079642	0
615.1023792400371	1.1055742650034357	0
616.9638241999671	0.8614449599300259	1
619.3451416392597	1.3813174392925853	1
620.7924688267144	0.44732718745466843	1
622.4373922413643	0.6449234146499078	1
624.0726484668443	0.6352562254800438	1
627.1442854203644	2.0716369535201267	1
628.8439136310406	0.6996282106762352	1
630.6360823897577	0.7921687587170767	1
633.5990139413886	1.9629315516309611	1
636.4119946968922	1.8129807555035966	1
637.9883425495284	0.5763478526361916	1
641.9224780693102	2.9341355197817256	1
644.3702329221636	1.4477548528534347	1
646.307113193725	0.9368802715613469	1
649.5581780212456	2.251064827520573	1
653.03167777235	2.473499751104471	0
654.5775487529891	0.5458709806389879	0
656.5033828128892	0.9258340599001271	1
657.9427684882126	0.4393856753234429	1
660.086346590877	1.1435781026645202	1
663.0516283978973	1.965281807020208	0
665.2855834676714	1.2339550697741486	0
667.3274303087222	1.0418468410508037	1
668.9910504480922	0.6636201393700487	1
670.7849376308101	0.7938871827178076	1
673.2268754352142	1.4419378044040434	1
675.1505761639605	0.9237007287464394	1
678.577807855052	2.427231691091377	1
680.4240675229312	0.8462596678792546	1
681.9734388225136	0.549371299582357	1
684.0075887442624	1.034149921748872	1
687.7776825474915	2.7700938032290763	1
691.2336127475869	2.455930200095428	0
693.2941582649239	1.0605455173370175	0
696.9809077308203	2.6867494658962263	1
698.5852165256052	0.6043087947850292	1
700.9891127070939	1.4038961814887538	1
702.5191294807048	0.530016773610869	1
