onset	rt	response
0.8425749027804019	0.8425749027804019	1
4.515379692999987	2.6728047902195855	0
6.332161810874941	0.8167821178749535	1
8.976736324269979	1.6445745133950371	0
10.337805998391051	0.36106967412107427	1
12.337957865067008	1.000151866675956	0
13.867946056244245	0.5299881911772372	1
15.380568409635847	0.5126223533916019	1
16.97663297492786	0.5960645652920145	1
18.97425993874594	0.99762696381808	0
20.7052212117976	0.7309612730516593	1
22.132128475330028	0.42690726353242947	1
24.988382754708063	1.8562542793780334	1
26.75415330564133	0.7657705509332665	0
28.111256883168576	0.3571035775272462	1
30.238857445983058	1.1276005628144818	0
31.742246056700772	0.5033886107177113	1
33.997188099645506	1.2549420429447338	0
35.3603804832703	0.3631923836247907	1
36.81298916978607	0.4526086865157731	1
39.3604532149712	1.5474640451851265	1
42.249602329281856	1.8891491143106556	1
44.187621591269775	0.9380192619879235	1
45.55842662976506	0.3708050384952846	1
47.41259890241203	0.8541722726469674	1
49.08968441597901	0.6770855135669811	1
50.40887675376998	0.3191923377909731	1
53.29950713660228	1.890630382832298	0
55.35560650676673	1.0560993701644565	0
58.747372817149014	2.391766310382279	1
63.010306416026665	3.262933598877645	0
64.30664076273736	0.2963343467106967	1
65.71864186030035	0.4120010975629995	1
67.38168574122263	0.6630438809222645	1
71.4236797838135	3.0419940425908774	1
73.10829804008856	0.684618256275043	0
75.1417373937055	1.0334393536169464	1
76.72441912409631	0.5826817303908158	1
78.1423618365086	0.4179427124122865	1
79.9472410432303	0.8048792067217054	1
82.22419531351878	1.27695427028848	0
84.942339947076	1.7181446335572141	0
87.05473795445013	1.112398007374142	1
88.56557218785849	0.5108342334083493	1
89.91943562069247	0.35386343283397503	1
91.24166277221101	0.3222271515185582	1
92.95955318996204	0.7178904177510127	1
96.79823702177937	2.838683831817335	1
98.63836167160657	0.8401246498272013	0
100.8435470771469	1.2051854055403188	1
102.38432473236733	0.5407776552204432	1
104.15534415085769	0.7710194184903496	0
105.6480200380847	0.4926758872270141	1
106.98509368187622	0.3370736437915219	1
108.36716634336992	0.3820726614936899	1
110.04323079299903	0.6760644496291186	0
111.9251728558697	0.8819420628706814	0
114.33355506971708	1.4083822138473718	0
115.81761004114787	0.48405497143079323	1
117.23468388971554	0.41707384856765906	1
120.853332353427	2.6186484637114757	0
122.89549901463957	1.0421666612125629	1
124.1583113111167	0.2628122964771413	1
126.6061472045103	1.4478358933935818	0
128.67464799791668	1.0685007934063895	0
130.0849499468199	0.41030194890324195	1
134.7305988906619	3.6456489438419784	0
136.28828142932548	0.5576825386635804	1
137.73578941163316	0.44750798230766486	1
139.235017988346	0.4992285767128327	1
141.0983330685126	0.863315080166601	1
143.187025594137	1.0886925256244142	0
147.39623716997136	3.2092115758343627	1
149.28941821005282	0.8931810400814535	0
150.7312253968057	0.44180718675291597	1
152.9253763579366	1.1941509611308865	0
154.63084409402825	0.7054677360916387	1
156.9848909044801	1.3540468104518628	1
158.54158468653253	0.5566937820524347	1
160.43131389197163	0.8897292054390753	1
163.47257579711084	2.041261905139202	0
165.07314594957356	0.6005701524627187	1
166.68278380639885	0.609637856825308	1
168.33775476620048	0.6549709598016104	0
171.20882823932635	1.8710734731258691	1
172.84435371458966	0.6355254752632864	1
174.1458711260548	0.3015174114651519	1
176.6867944241708	1.54092329811601	1
178.03377728698527	0.34698286281445234	1
180.57590680184302	1.5421295148577447	1
182.01186904982376	0.43596224798072963	1
186.30282106774757	3.2909520179238467	1
187.9052798160102	0.6024587482625887	1
189.42491404364307	0.5196342276328947	0
190.7992480771282	0.37433403348514566	1
192.31276755069212	0.5135194735638859	1
193.79185596186568	0.4790884111735834	0
195.73106249262884	0.9392065307631667	0
199.3814585687848	2.6503960761559675	1
201.2353041125428	0.8538455437579814	0
203.14294097732878	0.9076368647859678	1
205.3156409201575	1.1726999428287335	0
207.20508513493888	0.8894442147813718	1
209.5924297972606	1.3873446623217256	1
212.7871255636298	2.194695766369183	0
216.2085849138807	2.4214593502509074	0
217.7305207324786	0.5219358185978917	1
220.2898871926082	1.5593664601296269	1
221.81308808797604	0.5232008953678126	1
223.23301364969723	0.41992556172118384	1
225.24895413595561	1.0159404862583816	1
227.16913832632267	0.9201841903670669	1
228.789201000616	0.6200626742933242	1
231.7328815351516	1.9436805345356205	0
234.25721471095642	1.5243331758048164	1
236.15113556233212	0.8939208513757086	1
237.637475210526	0.48633964819386666	1
239.63190530069699	0.9944300901709793	1
241.9427909651016	1.3108856644046387	0
244.92686058084126	1.9840696157396676	1
246.42949940583742	0.5026388249961435	1
248.62158512105884	1.1920857152214304	1
251.22452645267668	1.602941331617837	1
253.2114332921371	0.9869068394604033	1
255.48103283622646	1.2695995440893875	1
256.8467538454827	0.36572100925625756	1
258.69675594203545	0.8500020965527626	1
260.5810117064948	0.884255764459352	0
264.1146917165147	2.533680010019894	1
266.08923246200504	0.9745407454902806	0
267.71888892070757	0.6296564587025631	1
269.4050124076109	0.6861234869033088	1
271.5784061203615	1.1733937127506293	1
272.98801502216827	0.4096089018067445	1
274.46775132757693	0.4797363054086846	1
276.00531874992345	0.5375674223465208	1
280.801563459097	3.796244709173563	1
283.00221227933724	1.200648820240243	0
285.014241610299	1.0120293309617525	1
286.5163172168922	0.5020756065932137	1
288.1534458931588	0.6371286762665707	1
291.0826756017127	1.9292297085538899	1
294.37016257667847	2.2874869749657756	1
297.0559201692172	1.6857575925387198	1
299.98643542063405	1.9305152514168338	1
302.87690001102067	1.8904645903866741	0
304.48210163554813	0.605201624527458	1
306.86011112515837	1.378009489610235	1
309.150503748847	1.2903926236885734	1
310.8638455886311	0.7133418397841356	0
312.3966091624106	0.5327635737794708	1
314.35384078046445	0.9572316180539076	1
315.9399505517209	0.5861097712564352	0
317.3743905322681	0.4344399805471221	1
319.1085973148664	0.7342067825983498	0
320.7035342867331	0.5949369718666764	1
322.0538324603564	0.35029817362327254	1
323.7150601257216	0.6612276653652758	1
325.5394817063867	0.8244215806651155	1
327.04473197312905	0.5052502667423334	1
328.8871508748886	0.8424189017595485	1
330.6170361578688	0.7298852829801692	0
332.72269059741103	1.1056544395422234	0
334.95026907907635	1.227578481665327	1
336.6551755282867	0.7049064492103168	1
338.5746373272384	0.9194617989517772	1
341.33920980885796	1.764572481619555	1
344.11285868817254	1.7736488793145144	1
346.657673582407	1.5448148942344828	0
347.9955280296215	0.33785444721447033	1
349.42397751801485	0.4284494883933682	1
351.2136702750763	0.7896927570614942	1
352.848734756687	0.6350644816106346	0
355.5390116232982	1.6902768666112382	1
356.8879737015269	0.3489620782287135	1
359.46423201920516	1.5762583176782243	1
361.28345207894233	0.8192200597371714	1
363.0408059462841	0.7573538673417655	1
365.4816602335436	1.4408542872594594	1
367.26457641633874	0.7829161827951675	1
369.51691596053	1.2523395441912455	0
370.8653095352777	0.34839357474767574	1
372.4813663564647	0.616056821187024	1
374.03479737822795	0.5534310217632347	1
378.5336578206129	3.498860442385013	1
381.83693340367336	2.303275583060429	0
384.4342390328743	1.5973056292009264	0
385.84650427683357	0.4122652439592439	1
387.3785421506623	0.5320378738287883	0
389.0288492486877	0.6503070980254052	1
390.80437498709375	0.7755257384060578	0
392.7713118069007	0.9669368198069652	0
394.182533075182	0.4112212682812636	1
396.0829945893299	0.9004615141479771	0
399.1277114890921	2.0447168997621916	0
401.0544231726145	0.9267116835223913	0
402.82676885073136	0.7723456781168009	1
405.6226089918575	1.7958401411261091	1
407.79453947230786	1.171930480450353	0
409.30545053053686	0.5109110582290131	1
412.049316221223	1.743865690686158	1
413.55702245674104	0.5077062355180513	1
415.3945278675403	0.837505410799295	1
417.51637937813825	1.1218515105978746	1
420.3249531846034	1.8085738064651753	1
422.863643557361	1.5386903727575794	1
424.73419597577873	0.8705524184177585	1
426.3701439698015	0.635947994022786	1
430.4659733831063	3.0958294133047555	1
433.79864084198545	2.3326674588791763	1
435.52728079447286	0.7286399524873963	1
437.10823555212147	0.5809547576486387	1
438.8879670840603	0.779731531938798	0
440.4239542581055	0.535987174045201	0
441.82566891336285	0.40171465525738814	1
443.65115774321464	0.8254888298517855	0
445.0338977428721	0.38273999965748534	1
446.74391560874153	0.7100178658693823	1
448.2224913447069	0.4785757359653765	0
450.28555127321624	1.0630599285093794	1
452.22040135699524	0.9348500837789817	1
453.92025423323116	0.6998528762358918	1
455.6391266838677	0.7188724506365534	1
457.0393373669381	0.4002106830704524	1
460.4632242152318	2.423886848293616	1
462.56359609280634	1.1003718775745939	1
465.46373225993693	1.9001361671306316	1
467.8200406164656	1.3563083565286027	0
469.3824421547553	0.5624015382897551	1
470.7433598940594	0.3609177393040721	1
472.42498299039136	0.6816230963319565	1
474.0388587990734	0.6138758086820797	1
475.4543900582583	0.41553125918486084	1
478.4931898150893	2.0387997568309766	1
480.23401985801553	0.740830042926266	0
482.41675040816017	1.1827305501446554	1
485.87705788373273	2.460307475572508	0
487.30447054181377	0.4274126580810689	1
490.1461398709014	1.8416693290875683	1
491.57976369236644	0.4336238214651053	1
493.4198746203119	0.8401109279454058	1
496.1731570914926	1.7532824711807422	1
497.65826139610374	0.4851043046111281	1
499.3038013065134	0.6455399104096472	1
501.58176453404917	1.277963227535769	1
503.7373753226008	1.1556107885516576	0
505.131428150531	0.39405282793020463	1
507.53803703051835	1.4066088799873668	1
510.7909584655877	2.252921435069376	1
512.1640376845646	0.37307921897685464	1
514.0757095174012	0.9116718328365772	1
515.6375253487431	0.5618158313420003	1
520.27431490363	3.6367895548869216	0
522.4598540172927	1.18553911366261	0
523.8057567128888	0.34590269559594633	1
525.5349221657889	0.7291654529001083	1
527.1168091336673	0.5818869678784762	1
528.5065712767821	0.3897621431148156	1
530.2149050908803	0.7083338140981805	1
531.6368206885901	0.42191559770978593	1
533.4551502619554	0.818329573365255	0
534.8345468484829	0.37939658652760777	1
538.3059120522682	2.47136520378527	1
540.7744293290096	1.4685172767414172	1
542.8405727359798	1.06614340697016	1
544.9524829866816	1.1119102507018046	1
546.4567749006585	0.5042919139768275	1
549.6294081672213	2.1726332665628325	0
551.5747596196074	0.9453514523861193	1
553.2009698426459	0.6262102230385407	1
555.1803274512638	0.9793576086179206	0
557.2317178578817	1.0513904066177893	1
559.0616415542956	0.8299236964139496	0
560.8143126517106	0.7526710974149724	1
563.6585538397093	1.8442411879987033	0
565.1476235466816	0.48906970697233576	1
567.9665211665334	1.8188976198518148	1
572.4126213431077	3.4461001765743444	1
574.2579332232931	0.8453118801852546	1
577.9776941918494	2.7197609685563826	1
580.9447193635694	1.9670251717199962	1
583.2739539345057	1.3292345709362339	0
586.0487696675696	1.7748157330637997	0
588.9217641885509	1.8729945209813879	0
591.9987158283623	2.0769516398113455	1
594.5872469127808	1.5885310844185196	1
596.144326812794	0.5570799000133231	1
597.5518202433256	0.40749343053154596	1
599.0352442111047	0.4834239677791413	1
600.6210484163629	0.5858042052582418	0
602.2087013083644	0.5876528920015813	0
605.6311816432428	2.422480334878263	1
606.9984946189421	0.3673129756993476	1
609.0012633369104	1.0027687179682538	1
610.6682867490528	0.6670234121423848	1
613.5047692901447	1.8364825410919556	1
615.6580937666026	1.1533244764578852	1
617.5758704236475	0.9177766570449495	1
618.9893365397106	0.4134661160630513	1
621.0011311859853	1.0117946462747471	1
