onset	trial_type	rt	response
1.7002660359269277	hard	1.7002660359269277	1
3.1916297658075847	hard	0.4913637298806572	1
6.539727251307663	hard	2.348097485500078	1
8.48921042459735	hard	0.9494831732896856	1
11.9462086246878	hard	2.456998200090452	0
15.145354353627598	hard	2.199145728939797	0
17.558976295103562	hard	1.4136219414759645	1
19.764066545620462	hard	1.205090250516899	1
21.367392069200662	hard	0.603325523580198	1
26.127293443355665	hard	3.759901374155004	1
27.71251565642925	hard	0.5852222130735847	0
29.9761842140678	hard	1.2636685576385496	0
32.48205101998409	hard	1.5058668059162907	0
34.51764090548096	hard	1.0355898854968681	0
36.137096304171834	hard	0.6194553986908786	0
39.16833592289153	hard	2.0312396187196877	0
43.47515416720091	hard	3.3068182443093885	0
45.0978459782736	hard	0.6226918110726846	1
46.670802782701806	hard	0.5729568044282103	0
50.16819276536607	hard	2.4973899826642616	1
51.822208033506634	hard	0.6540152681405655	1
53.71632080782469	hard	0.8941127743180536	0
55.33846144659704	hard	0.6221406387723489	1
57.26176548579353	hard	0.9233040391964974	0
59.7489988724941	hard	1.4872333867005685	0
61.95796979093724	hard	1.2089709184431416	1
64.64768139307188	hard	1.6897116021346386	1
66.46693904701067	hard	0.8192576539387939	0
68.20919224673273	hard	0.7422531997220647	0
70.07897434325227	hard	0.8697820965195322	1
73.05860957971052	hard	1.979635236458253	0
75.25816309832575	hard	1.1995535186152366	1
78.33032856625275	hard	2.072165467927001	0
81.13277823684149	hard	1.802449670588741	1
87.58284666024508	hard	5.450068423403577	1
89.9112823016872	hard	1.3284356414421232	1
91.3957546536939	hard	0.48447235200670935	1
94.31158654542281	hard	1.9158318917289094	0
95.9482579739934	hard	0.6366714285705892	1
99.55550221295107	hard	2.6072442389576755	0
101.49831283869065	hard	0.942810625739567	1
104.8175254315687	hard	2.319212592878059	0
106.45413129927752	hard	0.6366058677088218	1
109.81229448589448	hard	2.35816318661697	0
111.44225107555356	hard	0.6299565896590682	1
113.37800484326263	hard	0.9357537677090746	1
115.87614708984566	hard	1.4981422465830307	1
117.95519696084446	hard	1.0790498709987975	1
120.76177918375969	hard	1.8065822229152233	1
122.81636240074386	hard	1.0545832169841638	0
125.6093841629808	hard	1.7930217622369526	1
127.64855590193085	hard	1.0391717389500503	0
129.80744919748247	hard	1.1588932955516218	1
133.25967782855008	hard	2.452228631067598	0
135.09771320967116	hard	0.8380353811211008	0
138.10179018037877	hard	2.0040769707076027	1
141.5075668069909	hard	2.405776626612132	1
143.08624530929637	hard	0.5786785023054789	1
145.0658701509201	hard	0.9796248416236988	1
146.9407476933958	hard	0.8748775424756862	0
148.96334535422946	hard	1.022597660833686	1
151.37397571460832	hard	1.4106303603788812	0
155.1844753077852	hard	2.810499593176854	1
156.9518922614572	hard	0.7674169536719968	1
159.44674197163826	hard	1.4948497101810774	1
161.2729165031385	hard	0.8261745315002452	0
163.33437793897014	hard	1.0614614358316432	1
166.0144475562803	hard	1.6800696173101433	1
169.08508918569356	hard	2.07064162941326	0
170.77903821450886	hard	0.6939490288153056	0
172.54835005559255	hard	0.7693118410837028	1
174.61330710401566	hard	1.0649570484230961	1
176.3070578235383	hard	0.69375071952264	1
177.88769566464458	hard	0.5806378411062829	0
179.9186957897469	hard	1.0310001251022884	1
181.76304037212003	hard	0.8443445823731517	1
184.5864673586909	hard	1.823426986570864	1
187.28907344634212	hard	1.7026060876512106	0
191.19612465775435	hard	2.9070512114122673	1
193.5737705476073	hard	1.3776458898529118	0
196.11978060599225	hard	1.5460100583849652	1
197.95532388949889	hard	0.8355432835066391	1
199.88314301957524	hard	0.9278191300763712	0
201.79744162520205	hard	0.9142986056267925	0
204.90171373123763	hard	2.1042721060355856	0
206.4567281444603	hard	0.5550144132226583	0
210.51509071354332	hard	3.0583625690830094	1
212.60920219429076	hard	1.0941114807474484	0
214.91958941706798	hard	1.3103872227772404	1
217.51078150576822	hard	1.5911920887002238	1
219.83005577331966	hard	1.3192742675514277	1
221.37925771272987	hard	0.5492019394102011	0
222.92209373406408	hard	0.5428360213342192	1
226.57735648077795	hard	2.6552627467138707	1
228.6788329846088	hard	1.1014765038308347	1
230.2550609983071	hard	0.5762280136983176	1
233.61617536066714	hard	2.3611143623600404	1
235.3272252002263	hard	0.7110498395591728	0
236.81335056746443	hard	0.48612536723810845	0
239.16011151052732	hard	1.3467609430629015	1
241.49647050718025	hard	1.3363589966529448	0
243.62965896105158	hard	1.133188453871313	1
245.6843266764037	hard	1.0546677153521253	0
248.5449627082519	hard	1.8606360318481734	0
252.25259648000102	hard	2.7076337717491388	1
254.53892947846222	hard	1.2863329984611962	1
257.1747645851121	hard	1.6358351066498606	0
258.9924864540194	hard	0.8177218689073553	1
261.18275076456075	hard	1.1902643105413313	1
264.8914547802493	hard	2.7087040156886038	1
266.55960168565457	hard	0.6681469054052018	0
268.05210371601447	hard	0.49250203035993584	1
270.3039526133555	hard	1.2518488973410278	0
271.91873649185027	hard	0.6147838784947788	1
274.1687835351768	hard	1.2500470433264868	1
276.58047328393604	hard	1.41168974875929	0
279.0923242508614	hard	1.5118509669253122	1
282.47390364821257	hard	2.381579397351166	0
285.33430520772976	hard	1.8604015595171774	1
287.28649689751757	hard	0.9521916897878222	0
288.91080683916334	hard	0.6243099416457959	0
290.67765015995826	hard	0.7668433207948735	1
292.5655214151252	hard	0.8878712551669485	1
297.7751518851866	hard	4.20963047006137	1
299.59781115043506	hard	0.8226592652485243	1
301.9300764906809	hard	1.3322653402458213	1
303.90955937537035	hard	0.9794828846894433	0
306.98385358707634	hard	2.0742942117060204	0
308.93388748081816	hard	0.9500338937418304	0
310.77540528897475	hard	0.8415178081565932	0
312.4939540965112	hard	0.7185488075363897	1
314.4977982764423	hard	1.0038441799311777	0
319.20521024292884	hard	3.707411966486513	0
322.6588933628386	hard	2.453683119909759	0
325.74836273351957	hard	2.0894693706809546	0
327.48244387860996	hard	0.7340811450903737	0
330.0244620700647	hard	1.5420181914547646	0
331.8644458269091	hard	0.8399837568444043	1
333.9773292106732	hard	1.1128833837640884	1
335.56590205292514	hard	0.5885728422519222	1
337.2804640912875	hard	0.7145620383623894	0
340.0476091777143	hard	1.7671450864268023	0
344.1954460112758	hard	3.1478368335614864	0
346.6617764566082	hard	1.466330445332407	1
348.94383407378336	hard	1.2820576171751297	1
351.15414713531203	hard	1.2103130615286852	0
353.4442298159531	hard	1.2900826806411216	0
355.68083178132235	hard	1.2366019653691982	1
357.4367554930042	hard	0.7559237116818687	1
359.14269192961194	hard	0.705936436607673	0
361.00874516865275	easy	0.8660532390408489	1
363.9987868366986	easy	1.9900416680459059	1
366.8662000196025	easy	1.867413182903825	0
369.7043598945745	easy	1.8381598749720127	1
371.4664820514305	easy	0.7621221568560156	0
373.1104120579495	easy	0.6439300065190071	0
374.5871765576113	easy	0.4767644996617783	1
376.7521763834197	easy	1.1649998258083984	1
379.7583982707	easy	2.006221887280298	0
381.5981278763412	easy	0.8397296056412064	0
383.2818479072257	easy	0.6837200308845137	0
385.24159416645506	easy	0.959746259229382	1
386.7937192777433	easy	0.5521251112882848	0
388.55306448332294	easy	0.7593452055796189	0
390.846745632321	easy	1.2936811489980637	1
392.80095524544686	easy	0.954209613125794	1
394.9013041390687	easy	1.1003488936218884	1
396.5424587464934	easy	0.6411546074247059	0
398.7007633395476	easy	1.1583045930541565	1
400.6052772618031	easy	0.9045139222555314	0
402.4958591963782	easy	0.8905819345750752	1
404.7228725462512	easy	1.2270133498730258	1
406.57599027539516	easy	0.8531177291439446	1
408.8138877946525	easy	1.237897519257365	1
410.3904643326289	easy	0.5765765379764047	1
412.0936329821037	easy	0.7031686494747924	1
413.9822310208697	easy	0.8885980387659635	0
415.5104408283577	easy	0.5282098074880205	1
417.3686524483561	easy	0.8582116199984018	1
419.2238730251595	easy	0.8552205768034227	1
421.9515233697969	easy	1.7276503446373876	1
423.701292623695	easy	0.7497692538980856	1
426.24009335856783	easy	1.5388007348728037	0
427.7342257931859	easy	0.4941324346180719	1
429.2937222137876	easy	0.5594964206017079	0
431.9351484259354	easy	1.6414262121478056	0
434.41254872478635	easy	1.4774002988509514	1
436.20576830344237	easy	0.7932195786560847	0
439.1952021346608	easy	1.989433831218366	0
441.038778316531	easy	0.8435761818702361	1
443.5465394764909	easy	1.5077611599598901	1
445.308322428457	easy	0.7617829519660695	1
449.3743621833204	easy	3.0660397548634037	1
451.04990487779787	easy	0.6755426944774798	1
452.7654974812186	easy	0.715592603420677	1
455.06103025089175	easy	1.2955327696731627	1
456.6611672109646	easy	0.6001369600728321	1
459.817984671464	easy	2.156817460499383	0
463.04973337788914	easy	2.231748706425141	0
467.0088317275765	easy	2.9590983496873347	0
469.32997317756696	easy	1.3211414499905003	0
471.90524623511175	easy	1.575273057544797	0
474.1053052448416	easy	1.2000590097298223	1
476.4084470034386	easy	1.3031417585969944	0
478.92643609565675	easy	1.5179890922181465	0
481.0383586570765	easy	1.1119225614197747	0
482.55354368129053	easy	0.5151850242140209	0
484.383077881322	easy	0.8295342000314381	1
486.89147358058983	easy	1.5083956992678338	1
488.4975792765184	easy	0.6061056959285754	0
490.0376293146123	easy	0.5400500380938797	1
493.210343532412	easy	2.1727142177997787	0
495.05317426007804	easy	0.8428307276660058	0
497.51093856095747	easy	1.4577643008794459	1
500.9125990040802	easy	2.4016604431227506	0
502.802106171055	easy	0.8895071669748182	0
504.52504469439555	easy	0.7229385233405056	1
506.2003977272502	easy	0.6753530328546797	1
508.10324598273166	easy	0.9028482554814472	1
509.9500189581764	easy	0.8467729754446818	1
512.2305846112813	easy	1.2805656531048872	0
514.5730277610162	easy	1.3424431497349727	1
516.155137840691	easy	0.5821100796748524	0
518.0025241161582	easy	0.84738627546708	1
520.9490047974652	easy	1.946480681307081	0
522.9575474360761	easy	1.0085426386107985	1
524.6986258703691	easy	0.7410784342931441	1
526.7298547467717	easy	1.0312288764025306	1
528.8195192272935	easy	1.0896644805217621	1
531.7500644271876	easy	1.9305451998940626	0
533.2754546612118	easy	0.5253902340242715	1
536.0780387244497	easy	1.8025840632379029	0
537.973395633361	easy	0.8953569089111622	1
540.7813404434683	easy	1.8079448101072864	1
542.542304788489	easy	0.7609643450207164	1
544.0499733782918	easy	0.5076685898029263	1
545.8804893195988	easy	0.830515941307072	0
547.7758003321399	easy	0.8953110125409972	1
550.3184982511557	easy	1.5426979190157089	1
552.0801748565557	easy	0.7616766054000557	1
554.2686017925726	easy	1.188426936016902	0
557.7972955553576	easy	2.528693762784956	1
559.4847980501079	easy	0.687502494750296	0
561.5388418537259	easy	1.054043803618153	1
563.464152367155	easy	0.9253105134290123	0
567.0304387187433	easy	2.5662863515883334	1
569.0864103561355	easy	1.0559716373921197	1
570.6995655101678	easy	0.6131551540323859	1
573.3894344136645	easy	1.6898689034966365	1
575.2402287153948	easy	0.850794301730247	1
577.8021529972943	easy	1.5619242818996584	1
579.6278885470867	easy	0.8257355497923422	1
582.240394514683	easy	1.6125059675962836	1
584.0404314306243	easy	0.8000369159411611	1
587.044753998874	easy	2.0043225682497514	1
588.9257007962239	easy	0.8809467973499139	1
590.4560889791205	easy	0.5303881828967568	1
593.0690838924188	easy	1.6129949132982389	1
596.3288934924813	easy	2.259809600062426	0
597.9829671950747	easy	0.654073702593493	1
599.5644590443687	easy	0.5814918492940229	1
601.2600583631086	easy	0.69559931873981	0
603.1161923853376	easy	0.8561340222290609	0
609.4563318802943	easy	5.340139494956696	1
611.522291649283	easy	1.065959768988578	1
613.2530766628563	easy	0.7307850135733647	1
615.0230243868817	easy	0.7699477240253563	1
616.6138282295985	easy	0.5908038427168861	1
618.7480874534987	easy	1.134259223900084	1
620.7804117489613	easy	1.0323242954627454	0
624.0587503359914	easy	2.278338587029938	1
625.5177642834378	easy	0.4590139474464074	1
627.3537640525151	easy	0.8359997690772523	0
630.3494453867726	easy	1.9956813342575517	1
632.9162610757448	easy	1.5668156889723344	0
635.497071251644	easy	1.5808101758990882	1
639.2364058365583	easy	2.7393345849143556	1
640.7396266004664	easy	0.5032207639081281	1
643.7837962088797	easy	2.0441696084133034	1
647.9354913430296	easy	3.151695134149838	1
649.6365320172213	easy	0.7010406741915809	0
651.7796351492165	easy	1.1431031319952405	1
653.7756092303824	easy	0.9959740811659955	1
655.9348111578026	easy	1.1592019274201442	1
657.6325969009356	easy	0.6977857431330434	1
659.1871118867623	easy	0.5545149858266196	1
661.5092092548531	easy	1.3220973680908008	0
664.0174032338317	easy	1.5081939789786363	0
665.801087627586	easy	0.7836843937541702	1
667.5591538208674	easy	0.7580661932815604	0
669.5327115163022	easy	0.9735576954347303	1
672.3609411161301	easy	1.8282295998279514	0
674.2035732513148	easy	0.8426321351846087	1
676.6467095645896	easy	1.4431363132748591	1
679.5898070515382	easy	1.9430974869485995	0
681.100146842907	easy	0.5103397913686756	1
683.554625012968	easy	1.454478170061201	1
686.228261186154	easy	1.6736361731858815	0
687.8528300930266	easy	0.6245689068727136	1
690.5968433097792	easy	1.744013216752581	1
