onset	trial_type	rt	response
0.671693744248413	hard	0.671693744248413	1
2.996876263555052	hard	1.3251825193066389	1
5.139406102821898	hard	1.1425298392668464	1
7.5578885397005395	hard	1.4184824368786415	0
12.760523123200219	hard	4.20263458349968	0
14.858527848082762	hard	1.0980047248825424	1
16.725007674480544	hard	0.8664798263977832	1
18.827325144623092	hard	1.1023174701425464	1
21.25536012967698	hard	1.4280349850538894	1
23.028994663000606	hard	0.7736345333236252	1
26.613983506461214	hard	2.5849888434606068	1
28.534684581458144	hard	0.9207010749969315	1
30.26851053334799	hard	0.7338259518898462	1
33.1860237777898	hard	1.9175132444418077	1
36.25649726610104	hard	2.070473488311249	0
43.11419356293072	hard	5.857696296829682	1
45.08746711893415	hard	0.9732735560034232	1
46.9984407001745	hard	0.9109735812403436	0
48.47213270245618	hard	0.4736920022816879	1
50.724190285769254	hard	1.252057583313072	1
52.33418445838836	hard	0.6099941726191003	1
54.13562260178901	hard	0.8014381434006508	1
56.662114992330544	hard	1.526492390541533	1
58.336358162049585	hard	0.6742431697190415	0
60.45858583419295	hard	1.1222276721433644	0
62.106987481328446	hard	0.6484016471354919	1
64.35936636061007	hard	1.252378879281625	0
67.63122423721654	hard	2.27185787660648	0
69.33605744384249	hard	0.704833206625936	1
72.27881344469596	hard	1.94275600085347	0
73.96442546585813	hard	0.6856120211621737	1
75.84099262168411	hard	0.8765671558259832	1
79.50558932249517	hard	2.6645967008110616	1
82.290297426012	hard	1.7847081035168328	0
84.1015409317807	hard	0.811243505768696	0
85.67720378946234	hard	0.5756628576816454	1
87.44127350303691	hard	0.7640697135745621	1
89.0787290613494	hard	0.6374555583125017	0
91.82914898095433	hard	1.7504199196049162	1
93.52635622817138	hard	0.6972072472170658	0
95.77479866341888	hard	1.2484424352474903	0
97.32307326778208	hard	0.5482746043632006	1
99.14157173517142	hard	0.8184984673893395	0
100.67286641928706	hard	0.5312946841156329	1
103.25123796730713	hard	1.57837154802009	1
108.62138753278637	hard	4.370149565479227	1
110.34045451614931	hard	0.7190669833629413	1
112.28143561334949	hard	0.9409810972001785	0
114.28940852659657	hard	1.0079729132470865	1
115.85536605979952	hard	0.5659575332029434	1
117.400888567522	hard	0.5455225077224826	0
119.36187516524188	hard	0.9609865977198793	1
121.52579205056479	hard	1.1639168853229047	1
123.48906994532739	hard	0.9632778947625975	1
126.22249312856364	hard	1.7334231832362514	1
130.5311910981223	hard	3.3086979695586356	1
132.42878852997936	hard	0.8975974318570776	1
136.73396390507855	hard	3.305175375099177	1
138.23175027481207	hard	0.4977863697335314	1
140.16968632526732	hard	0.937936050455258	1
142.39431724542504	hard	1.2246309201577237	1
144.39280941699485	hard	0.998492171569803	1
149.56238826742282	hard	4.169578850427954	1
151.88787919950278	hard	1.3254909320799602	1
153.46561215698648	hard	0.5777329574836909	1
158.14256618249522	hard	3.676954025508756	1
162.240339531534	hard	3.09777334903878	1
164.80971910026318	hard	1.5693795687291736	1
168.08411325723768	hard	2.2743941569745294	1
169.72923415540782	hard	0.6451208981701457	1
171.72501057722695	hard	0.9957764218191084	1
173.38571133728675	hard	0.6607007600598243	1
176.1653014845425	hard	1.7795901472557372	1
177.94633132250064	hard	0.7810298379581411	1
179.97455941520118	hard	1.0282280927005494	1
183.94727215345063	hard	2.9727127382494407	1
185.84845532662493	hard	0.9011831731743078	0
187.4779299881771	hard	0.6294746615521588	1
189.1083169427942	hard	0.6303869546171134	1
191.49528414404506	hard	1.3869672012508767	0
193.3537145898033	hard	0.8584304457582257	1
196.13561445780059	hard	1.781899867997284	1
197.7929173307087	hard	0.657302872908099	1
199.6339200936439	hard	0.8410027629351995	1
201.4099978404937	hard	0.7760777468498038	1
203.94191708235024	hard	1.5319192418565288	0
205.8589306916088	hard	0.9170136092585783	1
208.0586762881297	hard	1.1997455965209056	0
211.09207208094523	hard	2.0333957928155293	0
214.02416169937538	hard	1.9320896184301675	0
215.52114973223672	hard	0.4969880328613427	1
216.99331104265713	hard	0.47216131042037274	0
219.34844913635987	hard	1.3551380937027662	1
221.46877711155932	hard	1.1203279751994382	0
223.22157100084698	hard	0.7527938892876525	0
224.66631895649738	hard	0.4447479556504062	1
227.56930403974653	hard	1.902985083249154	1
230.82984193569163	hard	2.260537895945098	1
234.920281833183	hard	3.090439897491378	1
236.6092738141803	hard	0.6889919809973266	1
238.15622304314647	hard	0.5469492289661626	1
239.9009821336474	hard	0.7447590905009287	1
242.01000851882816	hard	1.1090263851807645	1
244.33451271691015	hard	1.3245041980819923	1
246.00504881688204	hard	0.6705360999718764	0
248.05878067752138	hard	1.0537318606393593	1
249.86283253441232	hard	0.8040518568909449	1
251.4038075404348	hard	0.5409750060224711	1
252.87267463054584	hard	0.46886709011104516	1
255.00400167224498	hard	1.1313270416991297	0
257.6095909677665	hard	1.6055892955215332	1
261.0177650094489	hard	2.408174041682427	0
264.05501043724723	hard	2.037245427798258	0
266.5593824136573	hard	1.5043719764101366	1
268.6994094643552	hard	1.1400270506978636	1
273.2110142710252	hard	3.511604806670003	1
275.7581979298696	hard	1.5471836588444126	1
277.66856820382463	hard	0.9103702739550746	1
279.1754921493975	hard	0.5069239455728125	0
281.72429392847914	hard	1.5488017790816635	1
283.478442270498	hard	0.7541483420188584	1
286.80046069901636	hard	2.322018428518369	1
289.1368010113522	hard	1.3363403123358235	1
291.0385427572809	hard	0.9017417459286947	0
294.14146001120264	hard	2.102917253921723	0
296.26906376747974	hard	1.1276037562771317	1
298.489774887562	hard	1.220711120082255	1
300.5958305508045	hard	1.1060556632425165	1
302.4062132471697	hard	0.8103826963651909	1
304.51662066820967	hard	1.110407421039965	1
306.5814897460843	hard	1.064869077874607	1
308.5021866443145	hard	0.9206968982302159	1
310.78339641631635	hard	1.2812097720018696	1
312.85790478908814	hard	1.0745083727717777	0
314.4288532135834	hard	0.5709484244952611	1
316.1833371671754	hard	0.7544839535920069	1
318.5748346913015	hard	1.3914975241260779	1
320.1903692651198	hard	0.6155345738183267	1
322.8457363868606	hard	1.6553671217408128	0
324.6874378408138	hard	0.8417014539531957	1
326.5894750484495	hard	0.9020372076356863	0
329.64124161912605	hard	2.051766570676558	1
332.15182860245716	hard	1.5105869833311143	1
334.153546392102	hard	1.0017177896448097	0
335.8205592967031	hard	0.6670129046011025	1
337.5005492451784	hard	0.679989948475274	1
339.32033381107965	hard	0.8197845659012534	1
342.04943409890205	hard	1.7291002878224462	1
343.66724464848437	hard	0.6178105495823527	1
346.2071621047851	hard	1.5399174563007036	1
348.32358118018226	easy	1.1164190753971734	1
350.2443125375467	easy	0.9207313573644214	1
352.2189800467563	easy	0.9746675092096251	1
354.4195946660718	easy	1.2006146193154983	1
356.3478729874116	easy	0.9282783213397863	1
358.49730451540233	easy	1.1494315279907563	1
362.01994133766624	easy	2.522636822263872	1
363.7656425128072	easy	0.745701175140939	1
365.4271126205816	easy	0.6614701077744359	1
367.15066421347626	easy	0.7235515928946127	1
370.19470275317235	easy	2.0440385396961376	1
372.66747311368914	easy	1.4727703605167737	1
374.7570955218098	easy	1.0896224081206476	1
376.28069940809814	easy	0.5236038862883978	1
378.5610161637795	easy	1.2803167556813546	1
381.2291911995509	easy	1.6681750357713374	1
382.7369265284252	easy	0.5077353288743396	1
385.7467131262225	easy	2.009786597797304	1
387.32641819800017	easy	0.5797050717776591	0
389.6984337981568	easy	1.3720156001566945	1
392.45502094984613	easy	1.756587151689295	1
394.7183216632734	easy	1.2633007134272787	1
396.4322991361861	easy	0.7139774729126922	1
397.9380564161795	easy	0.5057572799934256	1
399.9288856838599	easy	0.9908292676804127	1
401.5965872295292	easy	0.6677015456692358	0
405.77961203553	easy	3.1830248060008532	1
408.2574354093142	easy	1.4778233737841817	0
409.96946272042885	easy	0.7120273111146634	1
412.14399554372505	easy	1.1745328232962173	1
414.6254239130719	easy	1.4814283693468757	1
416.1057654036608	easy	0.48034149058886716	1
417.7978046688638	easy	0.6920392652029879	1
419.9889304197829	easy	1.191125750919059	1
422.5923228693776	easy	1.6033924495947107	1
424.86664372116803	easy	1.2743208517904285	1
427.1222476011611	easy	1.2556038799930749	1
428.80979450267716	easy	0.6875469015160118	1
430.87463156546426	easy	1.064837062787128	1
432.43915115832056	easy	0.5645195928562647	1
434.1704742476353	easy	0.7313230893147513	1
436.7614269772633	easy	1.5909527296280261	1
439.07251244545347	easy	1.3110854681901927	1
440.85928344917386	easy	0.7867710037204272	1
442.70901209993485	easy	0.8497286507609909	1
444.8179614325361	easy	1.1089493326011821	1
446.95575215722283	easy	1.1377907246867434	1
451.00192085942297	easy	3.046168702200143	1
453.22572146397596	easy	1.2238006045530099	1
454.8176476089287	easy	0.5919261449527515	1
458.4749356424234	easy	2.657288033494687	1
460.64504668643264	easy	1.1701110440092215	0
462.3650983659004	easy	0.720051679467731	1
465.2819338079624	easy	1.91683544206201	1
466.98522586133	easy	0.7032920533675722	0
469.3190786301088	easy	1.333852768778807	1
470.8712872948678	easy	0.5522086647590019	1
472.4294768900151	easy	0.5581895951473449	1
475.7286098470867	easy	2.2991329570715804	1
478.4794913832576	easy	1.7508815361708745	1
480.19308820307356	easy	0.7135968198159596	1
482.20820902716105	easy	1.0151208240874912	1
484.27215749516233	easy	1.0639484680013107	1
486.46797073119154	easy	1.1958132360292222	1
488.002977201837	easy	0.535006470645446	1
489.69672670939946	easy	0.6937495075624951	1
491.8099150618906	easy	1.1131883524911075	1
494.36754525219686	easy	1.5576301903062897	1
496.38957070536594	easy	1.0220254531690636	1
499.64273667922413	easy	2.2531659738581613	1
501.4848782186237	easy	0.8421415393995377	1
503.0348055213529	easy	0.5499273027292211	1
504.8129634409179	easy	0.7781579195649642	1
506.50072340840575	easy	0.687759967487864	0
508.3945922967187	easy	0.8938688883129671	1
512.0270623791914	easy	2.6324700824727243	1
513.800880864163	easy	0.7738184849715197	0
516.1490470572754	easy	1.3481661931125049	1
518.4559872004194	easy	1.30694014314393	1
520.2007606888367	easy	0.7447734884172712	1
522.0739489547128	easy	0.8731882658762052	1
524.4372786552274	easy	1.3633297005145075	1
526.431687613675	easy	0.9944089584475863	1
528.0516832407293	easy	0.6199956270543692	1
529.7577742971309	easy	0.706091056401723	1
531.5196901929236	easy	0.7619158957925718	1
533.184673443572	easy	0.6649832506484314	1
535.1057250918477	easy	0.9210516482756754	0
537.0381240598788	easy	0.9323989680311444	1
539.8623487122286	easy	1.8242246523497192	1
541.795512861461	easy	0.9331641492324643	0
544.1642570137277	easy	1.368744152266696	0
546.436337661869	easy	1.2720806481412357	0
548.0858265836205	easy	0.6494889217515196	1
550.045709692436	easy	0.9598831088154905	1
552.2583264641161	easy	1.2126167716801	1
554.9166029954797	easy	1.6582765313636494	1
556.4543332787645	easy	0.5377302832847335	1
558.0042926839142	easy	0.5499594051496883	1
559.5744774278542	easy	0.5701847439400487	1
561.5033019161339	easy	0.928824488279645	1
564.0468993317915	easy	1.543597415657575	1
566.1290080156859	easy	1.0821086838945135	1
568.2791799305298	easy	1.1501719148439151	1
569.8424970332575	easy	0.5633171027276492	1
574.102387350018	easy	3.2598903167606186	1
580.2612651119523	easy	5.158877761934178	1
582.9730686101902	easy	1.7118034982380064	1
585.494141782311	easy	1.52107317212067	0
587.5117630178343	easy	1.017621235523247	1
590.4628437706177	easy	1.9510807527835354	1
592.473251615914	easy	1.0104078452962204	1
595.2886019586899	easy	1.81535034277597	1
596.8871964932767	easy	0.5985945345868393	1
598.5432740252234	easy	0.6560775319465353	1
600.5989778967999	easy	1.0557038715765112	1
602.6019466317935	easy	1.0029687349937413	1
604.141576172884	easy	0.5396295410904599	1
606.742903505326	easy	1.601327332442112	1
608.5528757775139	easy	0.8099722721878118	1
611.7895411677878	easy	2.2366653902739904	1
613.8034193361217	easy	1.0138781683338567	1
616.1772693376317	easy	1.3738500015100894	0
618.047676958535	easy	0.8704076209031765	1
620.0160327214237	easy	0.9683557628887132	1
622.3303587138205	easy	1.3143259923968083	0
623.8188492522711	easy	0.48849053845068835	1
625.9558058874777	easy	1.1369566352065337	1
628.4692024680651	easy	1.5133965805872978	1
630.619099129052	easy	1.149896660986943	0
632.3447254796865	easy	0.7256263506345607	1
634.4119658773477	easy	1.0672403976612546	1
636.1263592568262	easy	0.7143933794784549	1
637.7504385900186	easy	0.6240793331923189	1
639.7494856253022	easy	0.9990470352836187	0
641.1646125398847	easy	0.4151269145825188	1
643.161908487527	easy	0.9972959476423069	0
645.0954164342708	easy	0.9335079467437841	0
646.7348502266402	easy	0.6394337923694775	1
649.2807706252079	easy	1.5459203985676042	0
650.970793392998	easy	0.690022767790126	0
652.9511526425881	easy	0.9803592495902256	1
654.6221744094264	easy	0.6710217668382189	1
657.2740571683944	easy	1.6518827589679776	1
658.9738969288492	easy	0.6998397604548492	0
660.5742083911422	easy	0.6003114622929493	1
664.3239113203113	easy	2.749702929168997	1
667.2033559280021	easy	1.8794446076908524	1
670.5630196285706	easy	2.359663700568583	1
673.1801370322246	easy	1.6171174036538698	1
